<?xml version="1.0" encoding="UTF-8"?>
<!--
  Synthetic REDCap Cloud 14.0.0 ODM 1.3.1 export for migration tests.
  Phase 1 vaccine study (VAX1001) — first-in-human dose-escalation
  in healthy adults with a placebo arm. Two-arm longitudinal project
  reflecting REDCap's project-as-protocol export style.

  REDCap exports characteristically:
    - Do NOT populate Originator on the ODM root
    - Use SourceSystem="REDCap" + SourceSystemVersion as the only vendor
      identifier on the root (vendor detection here falls through to
      namespace sniff against xmlns:redcap)
    - ODMVersion 1.3.1 (REDCap historically targets 1.3.1)
    - Namespace https://projectredcap.org for the redcap: prefix
    - Per-field metadata on every ItemDef: redcap:Variable,
      redcap:FieldNote, redcap:FieldNumber, redcap:Validation

  Not a real study. All fabricated.
-->
<ODM ODMVersion="1.3.1"
     FileOID="VAX1001-2026-05-11T00:00:00"
     FileType="Snapshot"
     CreationDateTime="2026-05-11T00:00:00"
     SourceSystem="REDCap"
     SourceSystemVersion="14.0.0"
     xmlns="http://www.cdisc.org/ns/odm/v1.3"
     xmlns:redcap="https://projectredcap.org"
     xmlns:xsi="http://www.w3.org/2001/XMLSchema-instance">

  <Study OID="S_VAX1001">
    <GlobalVariables>
      <StudyName>VAX1001 Phase 1 Dose-Escalation Vaccine Study</StudyName>
      <StudyDescription>A Phase 1 First-in-Human Randomized Single-Blind Placebo-Controlled Dose-Escalation Study to Evaluate the Safety, Tolerability, and Immunogenicity of Investigational Vaccine CVX-001 in Healthy Adult Volunteers</StudyDescription>
      <ProtocolName>VAX1001</ProtocolName>
    </GlobalVariables>

    <BasicDefinitions>
      <MeasurementUnit OID="MU.mmHg" Name="mmHg">
        <Symbol><TranslatedText xml:lang="en">mmHg</TranslatedText></Symbol>
      </MeasurementUnit>
      <MeasurementUnit OID="MU.C" Name="degC">
        <Symbol><TranslatedText xml:lang="en">°C</TranslatedText></Symbol>
      </MeasurementUnit>
    </BasicDefinitions>

    <MetaDataVersion OID="v1.0"
                     Name="VAX1001 v1.0 — IRB-approved 2026-02-08"
                     redcap:RecordIDField="record_id"
                     redcap:Longitudinal="Yes">

      <Protocol>
        <StudyEventRef StudyEventOID="SE_SCREEN" OrderNumber="1" Mandatory="Yes"/>
        <StudyEventRef StudyEventOID="SE_DOSING" OrderNumber="2" Mandatory="Yes"/>
        <StudyEventRef StudyEventOID="SE_DAY7"   OrderNumber="3" Mandatory="Yes"/>
        <StudyEventRef StudyEventOID="SE_DAY28"  OrderNumber="4" Mandatory="Yes"/>
        <StudyEventRef StudyEventOID="SE_DAY56"  OrderNumber="5" Mandatory="Yes"/>
        <StudyEventRef StudyEventOID="SE_COMMON" OrderNumber="6" Mandatory="Yes"/>

        <!-- Multi-arm longitudinal structure: REDCap's project model -->
        <Arm OID="ARM1" Name="Active Vaccine (CVX-001)"/>
        <Arm OID="ARM2" Name="Placebo"/>
      </Protocol>

      <!-- ── StudyEventDef ─────────────────────────────────────────────────── -->
      <StudyEventDef OID="SE_SCREEN" Name="Screening Visit" Repeating="No" Type="Scheduled">
        <FormRef FormOID="F_DM" Mandatory="Yes" OrderNumber="1"/>
        <FormRef FormOID="F_IE" Mandatory="Yes" OrderNumber="2"/>
        <FormRef FormOID="F_VS" Mandatory="Yes" OrderNumber="3"/>
      </StudyEventDef>
      <StudyEventDef OID="SE_DOSING" Name="Dosing Day 0" Repeating="No" Type="Scheduled">
        <FormRef FormOID="F_VS" Mandatory="Yes" OrderNumber="1"/>
        <FormRef FormOID="F_EX" Mandatory="Yes" OrderNumber="2"/>
      </StudyEventDef>
      <StudyEventDef OID="SE_DAY7" Name="Day 7 Follow-up" Repeating="No" Type="Scheduled">
        <FormRef FormOID="F_VS" Mandatory="Yes" OrderNumber="1"/>
      </StudyEventDef>
      <StudyEventDef OID="SE_DAY28" Name="Day 28 Follow-up" Repeating="No" Type="Scheduled">
        <FormRef FormOID="F_VS" Mandatory="Yes" OrderNumber="1"/>
      </StudyEventDef>
      <StudyEventDef OID="SE_DAY56" Name="Day 56 End-of-Study" Repeating="No" Type="Scheduled">
        <FormRef FormOID="F_VS" Mandatory="Yes" OrderNumber="1"/>
        <FormRef FormOID="F_DS" Mandatory="Yes" OrderNumber="2"/>
      </StudyEventDef>
      <StudyEventDef OID="SE_COMMON" Name="Common Events (AE / CM)"
                     Repeating="Yes" Type="Common">
        <FormRef FormOID="F_AE" Mandatory="No" OrderNumber="1"/>
        <FormRef FormOID="F_CM" Mandatory="No" OrderNumber="2"/>
      </StudyEventDef>

      <!-- ── FormDef ──────────────────────────────────────────────────────── -->
      <FormDef OID="F_DM" Name="Demographics" Repeating="No">
        <ItemGroupRef ItemGroupOID="IG.DM" Mandatory="Yes" OrderNumber="1"/>
      </FormDef>
      <FormDef OID="F_IE" Name="Inclusion / Exclusion Criteria" Repeating="No">
        <ItemGroupRef ItemGroupOID="IG.IE" Mandatory="Yes" OrderNumber="1"/>
      </FormDef>
      <FormDef OID="F_VS" Name="Vital Signs" Repeating="No">
        <ItemGroupRef ItemGroupOID="IG.VS" Mandatory="Yes" OrderNumber="1"/>
      </FormDef>
      <FormDef OID="F_AE" Name="Adverse Events" Repeating="Yes">
        <ItemGroupRef ItemGroupOID="IG.AE" Mandatory="Yes" OrderNumber="1"/>
      </FormDef>
      <FormDef OID="F_CM" Name="Concomitant Medications" Repeating="Yes">
        <ItemGroupRef ItemGroupOID="IG.CM" Mandatory="Yes" OrderNumber="1"/>
      </FormDef>
      <FormDef OID="F_EX" Name="Vaccine Administration" Repeating="No">
        <ItemGroupRef ItemGroupOID="IG.EX" Mandatory="Yes" OrderNumber="1"/>
      </FormDef>
      <FormDef OID="F_DS" Name="Disposition" Repeating="No">
        <ItemGroupRef ItemGroupOID="IG.DS" Mandatory="Yes" OrderNumber="1"/>
      </FormDef>

      <!-- ── ItemGroupDef ─────────────────────────────────────────────────── -->
      <ItemGroupDef OID="IG.DM" Name="DM" Repeating="No" SASDatasetName="DM">
        <ItemRef ItemOID="I.DM.SUBJID"  OrderNumber="1" Mandatory="Yes"/>
        <ItemRef ItemOID="I.DM.BIRTHDT" OrderNumber="2" Mandatory="Yes"/>
        <ItemRef ItemOID="I.DM.SEX"     OrderNumber="3" Mandatory="Yes"/>
        <ItemRef ItemOID="I.DM.ARMCD"   OrderNumber="4" Mandatory="Yes"/>
      </ItemGroupDef>
      <ItemGroupDef OID="IG.IE" Name="IE" Repeating="No" SASDatasetName="IE">
        <ItemRef ItemOID="I.IE.INC01" OrderNumber="1" Mandatory="Yes"/>
        <ItemRef ItemOID="I.IE.EXC01" OrderNumber="2" Mandatory="Yes"/>
      </ItemGroupDef>
      <ItemGroupDef OID="IG.VS" Name="VS" Repeating="No" SASDatasetName="VS">
        <ItemRef ItemOID="I.VS.SYSBP" OrderNumber="1" Mandatory="Yes"/>
        <ItemRef ItemOID="I.VS.DIABP" OrderNumber="2" Mandatory="Yes"/>
        <ItemRef ItemOID="I.VS.PULSE" OrderNumber="3" Mandatory="Yes"/>
        <ItemRef ItemOID="I.VS.TEMP"  OrderNumber="4" Mandatory="Yes"/>
      </ItemGroupDef>
      <ItemGroupDef OID="IG.AE" Name="AE" Repeating="Yes" SASDatasetName="AE">
        <ItemRef ItemOID="I.AE.AETERM"  OrderNumber="1" Mandatory="Yes"/>
        <ItemRef ItemOID="I.AE.AESTDTC" OrderNumber="2" Mandatory="Yes"/>
        <ItemRef ItemOID="I.AE.AESEV"   OrderNumber="3" Mandatory="Yes"/>
        <ItemRef ItemOID="I.AE.AESER"   OrderNumber="4" Mandatory="Yes"/>
        <ItemRef ItemOID="I.AE.AEREL"   OrderNumber="5" Mandatory="Yes"/>
      </ItemGroupDef>
      <ItemGroupDef OID="IG.CM" Name="CM" Repeating="Yes" SASDatasetName="CM">
        <ItemRef ItemOID="I.CM.CMTRT"   OrderNumber="1" Mandatory="Yes"/>
        <ItemRef ItemOID="I.CM.CMSTDTC" OrderNumber="2" Mandatory="Yes"/>
        <ItemRef ItemOID="I.CM.CMINDC"  OrderNumber="3" Mandatory="No"/>
      </ItemGroupDef>
      <ItemGroupDef OID="IG.EX" Name="EX" Repeating="No" SASDatasetName="EX">
        <ItemRef ItemOID="I.EX.EXTRT"   OrderNumber="1" Mandatory="Yes"/>
        <ItemRef ItemOID="I.EX.EXDOSE"  OrderNumber="2" Mandatory="Yes"/>
        <ItemRef ItemOID="I.EX.EXSTDTC" OrderNumber="3" Mandatory="Yes"/>
      </ItemGroupDef>
      <ItemGroupDef OID="IG.DS" Name="DS" Repeating="No" SASDatasetName="DS">
        <ItemRef ItemOID="I.DS.DSCAT"  OrderNumber="1" Mandatory="Yes"/>
        <ItemRef ItemOID="I.DS.DSTERM" OrderNumber="2" Mandatory="Yes"/>
        <ItemRef ItemOID="I.DS.DSDTC"  OrderNumber="3" Mandatory="Yes"/>
      </ItemGroupDef>

      <!-- ── ItemDef — redcap: per-field metadata on every item ─────────────-->
      <ItemDef OID="I.DM.SUBJID" Name="SUBJID" DataType="text" Length="20"
               redcap:Variable="subjid"
               redcap:FieldNote="Assigned at screening; format SITE-SUBJ"
               redcap:FieldNumber="1.1">
        <Question><TranslatedText xml:lang="en">Subject ID</TranslatedText></Question>
        <Alias Context="CDASH" Name="SUBJID"/>
      </ItemDef>
      <ItemDef OID="I.DM.BIRTHDT" Name="BIRTHDT" DataType="date"
               redcap:Variable="birthdt"
               redcap:FieldNote="Date of birth — partial date NOT allowed"
               redcap:FieldNumber="1.2"
               redcap:Validation="date_mdy">
        <Question><TranslatedText xml:lang="en">Date of Birth</TranslatedText></Question>
        <Alias Context="CDASH" Name="BRTHDAT"/>
      </ItemDef>
      <ItemDef OID="I.DM.SEX" Name="SEX" DataType="text" Length="1"
               redcap:Variable="sex"
               redcap:FieldType="radio"
               redcap:FieldNumber="1.3">
        <Question><TranslatedText xml:lang="en">Sex at Birth</TranslatedText></Question>
        <CodeListRef CodeListOID="CL.SEX"/>
        <Alias Context="CDASH" Name="SEX"/>
      </ItemDef>
      <ItemDef OID="I.DM.ARMCD" Name="ARMCD" DataType="text" Length="10"
               redcap:Variable="armcd"
               redcap:FieldNote="Treatment arm code from randomization"
               redcap:FieldNumber="1.4">
        <Question><TranslatedText xml:lang="en">Treatment Arm</TranslatedText></Question>
        <CodeListRef CodeListOID="CL.ARMCD"/>
        <Alias Context="CDASH" Name="ARMCD"/>
      </ItemDef>

      <ItemDef OID="I.IE.INC01" Name="INC01" DataType="text" Length="1"
               redcap:Variable="inc01"
               redcap:FieldNote="Healthy adult age 18-55 inclusive"
               redcap:FieldType="radio">
        <Question><TranslatedText xml:lang="en">Inclusion 1: Healthy adult 18-55 yrs — Met?</TranslatedText></Question>
        <CodeListRef CodeListOID="CL.YN"/>
        <Alias Context="CDASH" Name="IETESTCD"/>
      </ItemDef>
      <ItemDef OID="I.IE.EXC01" Name="EXC01" DataType="text" Length="1"
               redcap:Variable="exc01"
               redcap:FieldNote="Pregnant or breast-feeding"
               redcap:FieldType="radio">
        <Question><TranslatedText xml:lang="en">Exclusion 1: Pregnant or breast-feeding — Present?</TranslatedText></Question>
        <CodeListRef CodeListOID="CL.YN"/>
        <Alias Context="CDASH" Name="IETESTCD"/>
      </ItemDef>

      <ItemDef OID="I.VS.SYSBP" Name="SYSBP" DataType="integer" Length="3"
               redcap:Variable="sysbp"
               redcap:Validation="integer"
               redcap:FieldNumber="3.1">
        <Question><TranslatedText xml:lang="en">Systolic BP (mmHg)</TranslatedText></Question>
        <MeasurementUnitRef MeasurementUnitOID="MU.mmHg"/>
        <RangeCheck Comparator="GE" SoftHard="Soft"><CheckValue>60</CheckValue></RangeCheck>
        <RangeCheck Comparator="LE" SoftHard="Hard"><CheckValue>250</CheckValue></RangeCheck>
        <Alias Context="CDASH" Name="SYSBP"/>
      </ItemDef>
      <ItemDef OID="I.VS.DIABP" Name="DIABP" DataType="integer" Length="3"
               redcap:Variable="diabp"
               redcap:Validation="integer"
               redcap:FieldNumber="3.2">
        <Question><TranslatedText xml:lang="en">Diastolic BP (mmHg)</TranslatedText></Question>
        <MeasurementUnitRef MeasurementUnitOID="MU.mmHg"/>
        <Alias Context="CDASH" Name="DIABP"/>
      </ItemDef>
      <ItemDef OID="I.VS.PULSE" Name="PULSE" DataType="integer" Length="3"
               redcap:Variable="pulse"
               redcap:Validation="integer"
               redcap:FieldNumber="3.3">
        <Question><TranslatedText xml:lang="en">Pulse rate (bpm)</TranslatedText></Question>
        <Alias Context="CDASH" Name="PULSE"/>
      </ItemDef>
      <ItemDef OID="I.VS.TEMP" Name="TEMP" DataType="float" Length="4" SignificantDigits="1"
               redcap:Variable="temp"
               redcap:Validation="number_1dp"
               redcap:FieldNumber="3.4">
        <Question><TranslatedText xml:lang="en">Temperature (°C)</TranslatedText></Question>
        <MeasurementUnitRef MeasurementUnitOID="MU.C"/>
        <RangeCheck Comparator="GE" SoftHard="Soft"><CheckValue>34.0</CheckValue></RangeCheck>
        <RangeCheck Comparator="LE" SoftHard="Soft"><CheckValue>42.0</CheckValue></RangeCheck>
        <Alias Context="CDASH" Name="TEMP"/>
      </ItemDef>

      <ItemDef OID="I.AE.AETERM" Name="AETERM" DataType="text" Length="200"
               redcap:Variable="aeterm"
               redcap:FieldType="text">
        <Question><TranslatedText xml:lang="en">Adverse Event term (verbatim)</TranslatedText></Question>
        <Alias Context="CDASH" Name="AETERM"/>
      </ItemDef>
      <ItemDef OID="I.AE.AESTDTC" Name="AESTDTC" DataType="date"
               redcap:Variable="aestdtc"
               redcap:Validation="date_mdy">
        <Question><TranslatedText xml:lang="en">AE start date</TranslatedText></Question>
        <Alias Context="CDASH" Name="AESTDAT"/>
      </ItemDef>
      <ItemDef OID="I.AE.AESEV" Name="AESEV" DataType="text" Length="10"
               redcap:Variable="aesev"
               redcap:FieldType="radio">
        <Question><TranslatedText xml:lang="en">Severity</TranslatedText></Question>
        <CodeListRef CodeListOID="CL.AESEV"/>
        <Alias Context="CDASH" Name="AESEV"/>
      </ItemDef>
      <ItemDef OID="I.AE.AESER" Name="AESER" DataType="text" Length="1"
               redcap:Variable="aeser"
               redcap:FieldType="radio">
        <Question><TranslatedText xml:lang="en">Serious?</TranslatedText></Question>
        <CodeListRef CodeListOID="CL.YN"/>
        <Alias Context="CDASH" Name="AESER"/>
      </ItemDef>
      <ItemDef OID="I.AE.AEREL" Name="AEREL" DataType="text" Length="20"
               redcap:Variable="aerel"
               redcap:FieldType="dropdown">
        <Question><TranslatedText xml:lang="en">Relationship to vaccine</TranslatedText></Question>
        <CodeListRef CodeListOID="CL.AEREL"/>
        <Alias Context="CDASH" Name="AEREL"/>
      </ItemDef>

      <ItemDef OID="I.CM.CMTRT" Name="CMTRT" DataType="text" Length="200"
               redcap:Variable="cmtrt">
        <Question><TranslatedText xml:lang="en">Medication name</TranslatedText></Question>
        <Alias Context="CDASH" Name="CMTRT"/>
      </ItemDef>
      <ItemDef OID="I.CM.CMSTDTC" Name="CMSTDTC" DataType="date"
               redcap:Variable="cmstdtc"
               redcap:Validation="date_mdy">
        <Question><TranslatedText xml:lang="en">CM start date</TranslatedText></Question>
        <Alias Context="CDASH" Name="CMSTDAT"/>
      </ItemDef>
      <ItemDef OID="I.CM.CMINDC" Name="CMINDC" DataType="text" Length="200"
               redcap:Variable="cmindc">
        <Question><TranslatedText xml:lang="en">Indication</TranslatedText></Question>
        <Alias Context="CDASH" Name="CMINDC"/>
      </ItemDef>

      <ItemDef OID="I.EX.EXTRT" Name="EXTRT" DataType="text" Length="40"
               redcap:Variable="extrt">
        <Question><TranslatedText xml:lang="en">Vaccine product</TranslatedText></Question>
        <Alias Context="CDASH" Name="EXTRT"/>
      </ItemDef>
      <ItemDef OID="I.EX.EXDOSE" Name="EXDOSE" DataType="float" Length="8" SignificantDigits="2"
               redcap:Variable="exdose"
               redcap:Validation="number_2dp">
        <Question><TranslatedText xml:lang="en">Dose (μg)</TranslatedText></Question>
        <Alias Context="CDASH" Name="EXDOSE"/>
      </ItemDef>
      <ItemDef OID="I.EX.EXSTDTC" Name="EXSTDTC" DataType="date"
               redcap:Variable="exstdtc"
               redcap:Validation="date_mdy">
        <Question><TranslatedText xml:lang="en">Vaccination date</TranslatedText></Question>
        <Alias Context="CDASH" Name="EXSTDAT"/>
      </ItemDef>

      <ItemDef OID="I.DS.DSCAT" Name="DSCAT" DataType="text" Length="30"
               redcap:Variable="dscat">
        <Question><TranslatedText xml:lang="en">Disposition category</TranslatedText></Question>
        <Alias Context="CDASH" Name="DSCAT"/>
      </ItemDef>
      <ItemDef OID="I.DS.DSTERM" Name="DSTERM" DataType="text" Length="200"
               redcap:Variable="dsterm">
        <Question><TranslatedText xml:lang="en">Disposition term</TranslatedText></Question>
        <Alias Context="CDASH" Name="DSTERM"/>
      </ItemDef>
      <ItemDef OID="I.DS.DSDTC" Name="DSDTC" DataType="date"
               redcap:Variable="dsdtc"
               redcap:Validation="date_mdy">
        <Question><TranslatedText xml:lang="en">Disposition date</TranslatedText></Question>
        <Alias Context="CDASH" Name="DSDAT"/>
      </ItemDef>

      <!-- ── CodeList ─────────────────────────────────────────────────────── -->
      <CodeList OID="CL.YN" Name="Yes/No" DataType="text">
        <CodeListItem CodedValue="Y" OrderNumber="1">
          <Decode><TranslatedText xml:lang="en">Yes</TranslatedText></Decode>
        </CodeListItem>
        <CodeListItem CodedValue="N" OrderNumber="2">
          <Decode><TranslatedText xml:lang="en">No</TranslatedText></Decode>
        </CodeListItem>
      </CodeList>
      <CodeList OID="CL.SEX" Name="Sex" DataType="text">
        <CodeListItem CodedValue="M" OrderNumber="1">
          <Decode><TranslatedText xml:lang="en">Male</TranslatedText></Decode>
        </CodeListItem>
        <CodeListItem CodedValue="F" OrderNumber="2">
          <Decode><TranslatedText xml:lang="en">Female</TranslatedText></Decode>
        </CodeListItem>
      </CodeList>
      <CodeList OID="CL.ARMCD" Name="Treatment Arm" DataType="text">
        <CodeListItem CodedValue="ARM1" OrderNumber="1">
          <Decode><TranslatedText xml:lang="en">Active Vaccine</TranslatedText></Decode>
        </CodeListItem>
        <CodeListItem CodedValue="ARM2" OrderNumber="2">
          <Decode><TranslatedText xml:lang="en">Placebo</TranslatedText></Decode>
        </CodeListItem>
      </CodeList>
      <CodeList OID="CL.AESEV" Name="AE Severity" DataType="text">
        <CodeListItem CodedValue="MILD" OrderNumber="1">
          <Decode><TranslatedText xml:lang="en">Mild</TranslatedText></Decode>
        </CodeListItem>
        <CodeListItem CodedValue="MODERATE" OrderNumber="2">
          <Decode><TranslatedText xml:lang="en">Moderate</TranslatedText></Decode>
        </CodeListItem>
        <CodeListItem CodedValue="SEVERE" OrderNumber="3">
          <Decode><TranslatedText xml:lang="en">Severe</TranslatedText></Decode>
        </CodeListItem>
      </CodeList>
      <CodeList OID="CL.AEREL" Name="AE Relationship to Vaccine" DataType="text">
        <CodeListItem CodedValue="NOT" OrderNumber="1">
          <Decode><TranslatedText xml:lang="en">Not related</TranslatedText></Decode>
        </CodeListItem>
        <CodeListItem CodedValue="POSSIBLE" OrderNumber="2">
          <Decode><TranslatedText xml:lang="en">Possibly related</TranslatedText></Decode>
        </CodeListItem>
        <CodeListItem CodedValue="PROBABLE" OrderNumber="3">
          <Decode><TranslatedText xml:lang="en">Probably related</TranslatedText></Decode>
        </CodeListItem>
        <CodeListItem CodedValue="DEFINITE" OrderNumber="4">
          <Decode><TranslatedText xml:lang="en">Definitely related</TranslatedText></Decode>
        </CodeListItem>
      </CodeList>

    </MetaDataVersion>
  </Study>

  <!-- ── ClinicalData ─────────────────────────────────────────────────────── -->
  <ClinicalData StudyOID="S_VAX1001" MetaDataVersionOID="v1.0">
    <SubjectData SubjectKey="VAX-001-001">
      <SiteRef LocationOID="SITE.001"/>
      <StudyEventData StudyEventOID="SE_SCREEN" StudyEventRepeatKey="1">
        <FormData FormOID="F_DM" FormRepeatKey="1">
          <ItemGroupData ItemGroupOID="IG.DM" ItemGroupRepeatKey="1">
            <ItemData ItemOID="I.DM.SUBJID"  Value="VAX-001-001"/>
            <ItemData ItemOID="I.DM.BIRTHDT" Value="1993-04-18"/>
            <ItemData ItemOID="I.DM.SEX"     Value="M"/>
            <ItemData ItemOID="I.DM.ARMCD"   Value="ARM1"/>
          </ItemGroupData>
        </FormData>
      </StudyEventData>
      <StudyEventData StudyEventOID="SE_DOSING" StudyEventRepeatKey="1">
        <FormData FormOID="F_VS" FormRepeatKey="1">
          <ItemGroupData ItemGroupOID="IG.VS" ItemGroupRepeatKey="1">
            <ItemData ItemOID="I.VS.SYSBP" Value="118"/>
            <ItemData ItemOID="I.VS.DIABP" Value="76"/>
            <ItemData ItemOID="I.VS.PULSE" Value="68"/>
            <ItemData ItemOID="I.VS.TEMP"  Value="36.7"/>
          </ItemGroupData>
        </FormData>
        <FormData FormOID="F_EX" FormRepeatKey="1">
          <ItemGroupData ItemGroupOID="IG.EX" ItemGroupRepeatKey="1">
            <ItemData ItemOID="I.EX.EXTRT"   Value="CVX-001 (active vaccine)"/>
            <ItemData ItemOID="I.EX.EXDOSE"  Value="50.00"/>
            <ItemData ItemOID="I.EX.EXSTDTC" Value="2026-03-10"/>
          </ItemGroupData>
        </FormData>
      </StudyEventData>
      <StudyEventData StudyEventOID="SE_COMMON" StudyEventRepeatKey="1">
        <FormData FormOID="F_AE" FormRepeatKey="1">
          <ItemGroupData ItemGroupOID="IG.AE" ItemGroupRepeatKey="1">
            <ItemData ItemOID="I.AE.AETERM"  Value="Injection-site soreness"/>
            <ItemData ItemOID="I.AE.AESTDTC" Value="2026-03-10"/>
            <ItemData ItemOID="I.AE.AESEV"   Value="MILD"/>
            <ItemData ItemOID="I.AE.AESER"   Value="N"/>
            <ItemData ItemOID="I.AE.AEREL"   Value="PROBABLE"/>
          </ItemGroupData>
        </FormData>
      </StudyEventData>
    </SubjectData>

    <SubjectData SubjectKey="VAX-001-002">
      <SiteRef LocationOID="SITE.001"/>
      <StudyEventData StudyEventOID="SE_SCREEN" StudyEventRepeatKey="1">
        <FormData FormOID="F_DM" FormRepeatKey="1">
          <ItemGroupData ItemGroupOID="IG.DM" ItemGroupRepeatKey="1">
            <ItemData ItemOID="I.DM.SUBJID"  Value="VAX-001-002"/>
            <ItemData ItemOID="I.DM.BIRTHDT" Value="1989-11-02"/>
            <ItemData ItemOID="I.DM.SEX"     Value="F"/>
            <ItemData ItemOID="I.DM.ARMCD"   Value="ARM2"/>
          </ItemGroupData>
        </FormData>
      </StudyEventData>
      <StudyEventData StudyEventOID="SE_DOSING" StudyEventRepeatKey="1">
        <FormData FormOID="F_VS" FormRepeatKey="1">
          <ItemGroupData ItemGroupOID="IG.VS" ItemGroupRepeatKey="1">
            <ItemData ItemOID="I.VS.SYSBP" Value="112"/>
            <ItemData ItemOID="I.VS.DIABP" Value="72"/>
            <ItemData ItemOID="I.VS.PULSE" Value="74"/>
            <ItemData ItemOID="I.VS.TEMP"  Value="36.5"/>
          </ItemGroupData>
        </FormData>
        <FormData FormOID="F_EX" FormRepeatKey="1">
          <ItemGroupData ItemGroupOID="IG.EX" ItemGroupRepeatKey="1">
            <ItemData ItemOID="I.EX.EXTRT"   Value="Placebo (saline)"/>
            <ItemData ItemOID="I.EX.EXDOSE"  Value="0.00"/>
            <ItemData ItemOID="I.EX.EXSTDTC" Value="2026-03-11"/>
          </ItemGroupData>
        </FormData>
      </StudyEventData>
    </SubjectData>
  </ClinicalData>

</ODM>
